 full2D RR spectrum in 10**-30 cm**2 sr**-1 molec**-1
      vib freq    incident freq      dsigma/dOmega
       0.0000      32262.1600         0.14141E+05
       0.0000      32302.4877         0.14288E+05
       0.0000      32342.8154         0.14437E+05
       0.0000      32383.1431         0.14587E+05
       0.0000      32423.4708         0.14740E+05
       0.0000      32463.7985         0.14895E+05
       0.0000      32504.1262         0.15051E+05
       0.0000      32544.4539         0.15210E+05
       0.0000      32584.7816         0.15370E+05
       0.0000      32625.1093         0.15533E+05
       0.0000      32665.4370         0.15697E+05
       0.0000      32705.7647         0.15864E+05
       0.0000      32746.0924         0.16033E+05
       0.0000      32786.4201         0.16204E+05
       0.0000      32826.7478         0.16378E+05
       0.0000      32867.0755         0.16553E+05
       0.0000      32907.4032         0.16731E+05
       0.0000      32947.7309         0.16911E+05
       0.0000      32988.0586         0.17094E+05
       0.0000      33028.3863         0.17279E+05
       0.0000      33068.7140         0.17466E+05
       0.0000      33109.0417         0.17656E+05
       0.0000      33149.3694         0.17849E+05
       0.0000      33189.6971         0.18044E+05
       0.0000      33230.0248         0.18241E+05
       0.0000      33270.3525         0.18442E+05
       0.0000      33310.6802         0.18645E+05
       0.0000      33351.0079         0.18850E+05
       0.0000      33391.3356         0.19059E+05
       0.0000      33431.6633         0.19270E+05
       0.0000      33471.9910         0.19485E+05
       0.0000      33512.3187         0.19702E+05
       0.0000      33552.6464         0.19922E+05
       0.0000      33592.9741         0.20145E+05
       0.0000      33633.3018         0.20372E+05
       0.0000      33673.6295         0.20601E+05
       0.0000      33713.9572         0.20834E+05
       0.0000      33754.2849         0.21070E+05
       0.0000      33794.6126         0.21309E+05
       0.0000      33834.9403         0.21552E+05
       0.0000      33875.2680         0.21798E+05
       0.0000      33915.5957         0.22048E+05
       0.0000      33955.9234         0.22301E+05
       0.0000      33996.2511         0.22557E+05
       0.0000      34036.5788         0.22818E+05
       0.0000      34076.9065         0.23082E+05
       0.0000      34117.2342         0.23350E+05
       0.0000      34157.5619         0.23622E+05
       0.0000      34197.8896         0.23898E+05
       0.0000      34238.2173         0.24178E+05
       0.0000      34278.5450         0.24462E+05
       0.0000      34318.8727         0.24750E+05
       0.0000      34359.2004         0.25042E+05
       0.0000      34399.5281         0.25339E+05
       0.0000      34439.8558         0.25640E+05
       0.0000      34480.1835         0.25946E+05
       0.0000      34520.5112         0.26256E+05
       0.0000      34560.8389         0.26571E+05
       0.0000      34601.1666         0.26891E+05
       0.0000      34641.4943         0.27216E+05
       0.0000      34681.8220         0.27545E+05
       0.0000      34722.1497         0.27880E+05
       0.0000      34762.4774         0.28219E+05
       0.0000      34802.8051         0.28564E+05
       0.0000      34843.1328         0.28915E+05
       0.0000      34883.4605         0.29270E+05
       0.0000      34923.7882         0.29632E+05
       0.0000      34964.1159         0.29999E+05
       0.0000      35004.4436         0.30372E+05
       0.0000      35044.7713         0.30750E+05
       0.0000      35085.0990         0.31135E+05
       0.0000      35125.4267         0.31526E+05
       0.0000      35165.7544         0.31923E+05
       0.0000      35206.0821         0.32327E+05
       0.0000      35246.4098         0.32737E+05
       0.0000      35286.7375         0.33154E+05
       0.0000      35327.0652         0.33577E+05
       0.0000      35367.3929         0.34008E+05
       0.0000      35407.7206         0.34445E+05
       0.0000      35448.0483         0.34890E+05
       0.0000      35488.3760         0.35342E+05
       0.0000      35528.7037         0.35802E+05
       0.0000      35569.0314         0.36270E+05
       0.0000      35609.3591         0.36745E+05
       0.0000      35649.6868         0.37228E+05
       0.0000      35690.0145         0.37720E+05
       0.0000      35730.3422         0.38220E+05
       0.0000      35770.6699         0.38729E+05
       0.0000      35810.9976         0.39246E+05
       0.0000      35851.3253         0.39773E+05
       0.0000      35891.6530         0.40309E+05
       0.0000      35931.9807         0.40854E+05
       0.0000      35972.3084         0.41408E+05
       0.0000      36012.6361         0.41973E+05
       0.0000      36052.9638         0.42548E+05
       0.0000      36093.2915         0.43132E+05
       0.0000      36133.6192         0.43728E+05
       0.0000      36173.9469         0.44334E+05
       0.0000      36214.2746         0.44951E+05
       0.0000      36254.6023         0.45580E+05
       0.0000      36294.9300         0.46220E+05
       0.0000      36335.2577         0.46871E+05
       0.0000      36375.5854         0.47535E+05
       0.0000      36415.9131         0.48212E+05
       0.0000      36456.2408         0.48901E+05
       0.0000      36496.5685         0.49603E+05
       0.0000      36536.8962         0.50319E+05
       0.0000      36577.2239         0.51048E+05
       0.0000      36617.5516         0.51791E+05
       0.0000      36657.8793         0.52549E+05
       0.0000      36698.2070         0.53321E+05
       0.0000      36738.5347         0.54109E+05
       0.0000      36778.8624         0.54912E+05
       0.0000      36819.1901         0.55731E+05
       0.0000      36859.5178         0.56566E+05
       0.0000      36899.8455         0.57418E+05
       0.0000      36940.1732         0.58287E+05
       0.0000      36980.5009         0.59175E+05
       0.0000      37020.8286         0.60080E+05
       0.0000      37061.1563         0.61004E+05
       0.0000      37101.4840         0.61947E+05
       0.0000      37141.8117         0.62909E+05
       0.0000      37182.1394         0.63892E+05
       0.0000      37222.4671         0.64896E+05
       0.0000      37262.7948         0.65921E+05
       0.0000      37303.1225         0.66968E+05
       0.0000      37343.4502         0.68038E+05
       0.0000      37383.7779         0.69131E+05
       0.0000      37424.1056         0.70248E+05
       0.0000      37464.4333         0.71390E+05
       0.0000      37504.7610         0.72557E+05
       0.0000      37545.0887         0.73751E+05
       0.0000      37585.4164         0.74971E+05
       0.0000      37625.7441         0.76219E+05
       0.0000      37666.0718         0.77496E+05
       0.0000      37706.3995         0.78802E+05
       0.0000      37746.7272         0.80139E+05
       0.0000      37787.0549         0.81507E+05
       0.0000      37827.3826         0.82908E+05
       0.0000      37867.7103         0.84342E+05
       0.0000      37908.0380         0.85810E+05
       0.0000      37948.3657         0.87315E+05
       0.0000      37988.6934         0.88856E+05
       0.0000      38029.0211         0.90435E+05
       0.0000      38069.3488         0.92054E+05
       0.0000      38109.6765         0.93714E+05
       0.0000      38150.0042         0.95416E+05
       0.0000      38190.3319         0.97161E+05
       0.0000      38230.6596         0.98952E+05
       0.0000      38270.9873         0.10079E+06
       0.0000      38311.3150         0.10268E+06
       0.0000      38351.6427         0.10461E+06
       0.0000      38391.9704         0.10660E+06
       0.0000      38432.2981         0.10864E+06
       0.0000      38472.6258         0.11074E+06
       0.0000      38512.9535         0.11290E+06
       0.0000      38553.2812         0.11512E+06
       0.0000      38593.6089         0.11740E+06
       0.0000      38633.9366         0.11975E+06
       0.0000      38674.2643         0.12216E+06
       0.0000      38714.5920         0.12465E+06
       0.0000      38754.9197         0.12721E+06
       0.0000      38795.2474         0.12984E+06
       0.0000      38835.5751         0.13256E+06
       0.0000      38875.9028         0.13536E+06
       0.0000      38916.2305         0.13825E+06
       0.0000      38956.5582         0.14122E+06
       0.0000      38996.8859         0.14430E+06
       0.0000      39037.2136         0.14747E+06
       0.0000      39077.5413         0.15075E+06
       0.0000      39117.8690         0.15413E+06
       0.0000      39158.1967         0.15762E+06
       0.0000      39198.5244         0.16124E+06
       0.0000      39238.8521         0.16497E+06
       0.0000      39279.1798         0.16883E+06
       0.0000      39319.5075         0.17282E+06
       0.0000      39359.8352         0.17694E+06
       0.0000      39400.1629         0.18120E+06
       0.0000      39440.4906         0.18559E+06
       0.0000      39480.8183         0.19013E+06
       0.0000      39521.1460         0.19480E+06
       0.0000      39561.4737         0.19961E+06
       0.0000      39601.8014         0.20454E+06
       0.0000      39642.1291         0.20961E+06
       0.0000      39682.4568         0.21479E+06
       0.0000      39722.7845         0.22009E+06
       0.0000      39763.1122         0.22551E+06
       0.0000      39803.4399         0.23107E+06
       0.0000      39843.7676         0.23679E+06
       0.0000      39884.0953         0.24272E+06
       0.0000      39924.4230         0.24889E+06
       0.0000      39964.7507         0.25535E+06
       0.0000      40005.0784         0.26215E+06
       0.0000      40045.4061         0.26932E+06
       0.0000      40085.7338         0.27691E+06
       0.0000      40126.0615         0.28493E+06
       0.0000      40166.3892         0.29341E+06
       0.0000      40206.7169         0.30236E+06
       0.0000      40247.0446         0.31180E+06
       0.0000      40287.3723         0.32172E+06
       0.0000      40327.7000         0.33216E+06
       0.0000      40368.0277         0.34310E+06
       0.0000      40408.3554         0.35456E+06
       0.0000      40448.6831         0.36654E+06
       0.0000      40489.0108         0.37904E+06
       0.0000      40529.3385         0.39206E+06
       0.0000      40569.6662         0.40559E+06
       0.0000      40609.9939         0.41962E+06
       0.0000      40650.3216         0.43417E+06
       0.0000      40690.6493         0.44926E+06
       0.0000      40730.9770         0.46492E+06
       0.0000      40771.3047         0.48123E+06
       0.0000      40811.6324         0.49830E+06
       0.0000      40851.9601         0.51628E+06
       0.0000      40892.2878         0.53537E+06
       0.0000      40932.6155         0.55577E+06
       0.0000      40972.9432         0.57769E+06
       0.0000      41013.2709         0.60132E+06
       0.0000      41053.5986         0.62684E+06
       0.0000      41093.9263         0.65435E+06
       0.0000      41134.2540         0.68394E+06
       0.0000      41174.5817         0.71558E+06
       0.0000      41214.9094         0.74916E+06
       0.0000      41255.2371         0.78444E+06
       0.0000      41295.5648         0.82095E+06
       0.0000      41335.8925         0.85804E+06
       0.0000      41376.2202         0.89474E+06
       0.0000      41416.5479         0.92972E+06
       0.0000      41456.8756         0.96133E+06
       0.0000      41497.2033         0.98764E+06
       0.0000      41537.5310         0.10066E+07
       0.0000      41577.8587         0.10164E+07
       0.0000      41618.1864         0.10159E+07
       0.0000      41658.5141         0.10052E+07
       0.0000      41698.8418         0.98543E+06
       0.0000      41739.1695         0.95930E+06
       0.0000      41779.4972         0.93023E+06
       0.0000      41819.8249         0.90181E+06
       0.0000      41860.1526         0.87718E+06
       0.0000      41900.4803         0.85849E+06
       0.0000      41940.8080         0.84684E+06
       0.0000      41981.1357         0.84227E+06
       0.0000      42021.4634         0.84396E+06
       0.0000      42061.7911         0.85057E+06
       0.0000      42102.1188         0.86047E+06
       0.0000      42142.4465         0.87202E+06
       0.0000      42182.7742         0.88372E+06
       0.0000      42223.1019         0.89447E+06
       0.0000      42263.4296         0.90353E+06
       0.0000      42303.7573         0.91061E+06
       0.0000      42344.0850         0.91581E+06
       0.0000      42384.4127         0.91952E+06
       0.0000      42424.7404         0.92237E+06
       0.0000      42465.0681         0.92509E+06
       0.0000      42505.3958         0.92842E+06
       0.0000      42545.7235         0.93294E+06
       0.0000      42586.0512         0.93908E+06
       0.0000      42626.3789         0.94712E+06
       0.0000      42666.7066         0.95726E+06
       0.0000      42707.0343         0.96973E+06
       0.0000      42747.3620         0.98481E+06
       0.0000      42787.6897         0.10028E+07
       0.0000      42828.0174         0.10238E+07
       0.0000      42868.3451         0.10480E+07
       0.0000      42908.6728         0.10753E+07
       0.0000      42949.0005         0.11051E+07
       0.0000      42989.3282         0.11371E+07
       0.0000      43029.6559         0.11703E+07
       0.0000      43069.9836         0.12041E+07
       0.0000      43110.3113         0.12372E+07
       0.0000      43150.6390         0.12688E+07
       0.0000      43190.9667         0.12978E+07
       0.0000      43231.2944         0.13235E+07
       0.0000      43271.6221         0.13451E+07
       0.0000      43311.9498         0.13625E+07
       0.0000      43352.2775         0.13754E+07
       0.0000      43392.6052         0.13844E+07
       0.0000      43432.9329         0.13900E+07
       0.0000      43473.2606         0.13937E+07
       0.0000      43513.5883         0.13970E+07
       0.0000      43553.9160         0.14014E+07
       0.0000      43594.2437         0.14084E+07
       0.0000      43634.5714         0.14188E+07
       0.0000      43674.8991         0.14323E+07
       0.0000      43715.2268         0.14482E+07
       0.0000      43755.5545         0.14643E+07
       0.0000      43795.8822         0.14786E+07
       0.0000      43836.2099         0.14886E+07
       0.0000      43876.5376         0.14923E+07
       0.0000      43916.8653         0.14886E+07
       0.0000      43957.1930         0.14777E+07
       0.0000      43997.5207         0.14605E+07
       0.0000      44037.8484         0.14389E+07
       0.0000      44078.1761         0.14151E+07
       0.0000      44118.5038         0.13913E+07
       0.0000      44158.8315         0.13692E+07
       0.0000      44199.1592         0.13500E+07
       0.0000      44239.4869         0.13343E+07
       0.0000      44279.8146         0.13223E+07
       0.0000      44320.1423         0.13136E+07
       0.0000      44360.4700         0.13077E+07
       0.0000      44400.7977         0.13036E+07
       0.0000      44441.1254         0.13008E+07
       0.0000      44481.4531         0.12985E+07
       0.0000      44521.7808         0.12965E+07
       0.0000      44562.1085         0.12944E+07
       0.0000      44602.4362         0.12925E+07
       0.0000      44642.7639         0.12909E+07
       0.0000      44683.0916         0.12899E+07
       0.0000      44723.4193         0.12896E+07
       0.0000      44763.7470         0.12903E+07
       0.0000      44804.0747         0.12919E+07
       0.0000      44844.4024         0.12943E+07
       0.0000      44884.7301         0.12973E+07
       0.0000      44925.0578         0.13008E+07
       0.0000      44965.3855         0.13046E+07
       0.0000      45005.7132         0.13086E+07
       0.0000      45046.0409         0.13130E+07
       0.0000      45086.3686         0.13178E+07
       0.0000      45126.6963         0.13234E+07
       0.0000      45167.0240         0.13297E+07
       0.0000      45207.3517         0.13369E+07
       0.0000      45247.6794         0.13450E+07
       0.0000      45288.0071         0.13538E+07
       0.0000      45328.3348         0.13632E+07
       0.0000      45368.6625         0.13727E+07
       0.0000      45408.9902         0.13819E+07
       0.0000      45449.3179         0.13902E+07
       0.0000      45489.6456         0.13970E+07
       0.0000      45529.9733         0.14018E+07
       0.0000      45570.3010         0.14039E+07
       0.0000      45610.6287         0.14031E+07
       0.0000      45650.9564         0.13993E+07
       0.0000      45691.2841         0.13926E+07
       0.0000      45731.6118         0.13836E+07
       0.0000      45771.9395         0.13731E+07
       0.0000      45812.2672         0.13622E+07
       0.0000      45852.5949         0.13516E+07
       0.0000      45892.9226         0.13421E+07
       0.0000      45933.2503         0.13340E+07
       0.0000      45973.5780         0.13272E+07
       0.0000      46013.9057         0.13214E+07
       0.0000      46054.2334         0.13159E+07
       0.0000      46094.5611         0.13100E+07
       0.0000      46134.8888         0.13030E+07
       0.0000      46175.2165         0.12944E+07
       0.0000      46215.5442         0.12842E+07
       0.0000      46255.8719         0.12725E+07
       0.0000      46296.1996         0.12596E+07
       0.0000      46336.5273         0.12460E+07
       0.0000      46376.8550         0.12322E+07
       0.0000      46417.1827         0.12187E+07
       0.0000      46457.5104         0.12058E+07
       0.0000      46497.8381         0.11938E+07
       0.0000      46538.1658         0.11827E+07
       0.0000      46578.4935         0.11725E+07
       0.0000      46618.8212         0.11630E+07
       0.0000      46659.1489         0.11540E+07
       0.0000      46699.4766         0.11454E+07
       0.0000      46739.8043         0.11370E+07
       0.0000      46780.1320         0.11288E+07
       0.0000      46820.4597         0.11208E+07
       0.0000      46860.7874         0.11131E+07
       0.0000      46901.1151         0.11057E+07
       0.0000      46941.4428         0.10988E+07
       0.0000      46981.7705         0.10924E+07
       0.0000      47022.0982         0.10866E+07
       0.0000      47062.4259         0.10813E+07
       0.0000      47102.7536         0.10765E+07
       0.0000      47143.0813         0.10721E+07
       0.0000      47183.4090         0.10678E+07
       0.0000      47223.7367         0.10637E+07
       0.0000      47264.0644         0.10595E+07
       0.0000      47304.3921         0.10553E+07
       0.0000      47344.7198         0.10510E+07
       0.0000      47385.0475         0.10466E+07
       0.0000      47425.3752         0.10422E+07
       0.0000      47465.7029         0.10378E+07
       0.0000      47506.0306         0.10335E+07
       0.0000      47546.3583         0.10293E+07
       0.0000      47586.6860         0.10251E+07
       0.0000      47627.0137         0.10210E+07
       0.0000      47667.3414         0.10167E+07
       0.0000      47707.6691         0.10123E+07
       0.0000      47747.9968         0.10074E+07
       0.0000      47788.3245         0.10020E+07
       0.0000      47828.6522         0.99595E+06
       0.0000      47868.9799         0.98910E+06
       0.0000      47909.3076         0.98143E+06
       0.0000      47949.6353         0.97300E+06
       0.0000      47989.9630         0.96394E+06
       0.0000      48030.2907         0.95446E+06
       0.0000      48070.6184         0.94477E+06
       0.0000      48110.9461         0.93510E+06
       0.0000      48151.2738         0.92559E+06
       0.0000      48191.6015         0.91636E+06
       0.0000      48231.9292         0.90742E+06
       0.0000      48272.2569         0.89873E+06
       0.0000      48312.5846         0.89020E+06
       0.0000      48352.9123         0.88172E+06
       0.0000      48393.2400         0.87321E+06
       0.0000      48433.5677         0.86458E+06
       0.0000      48473.8954         0.85582E+06
       0.0000      48514.2231         0.84694E+06
       0.0000      48554.5508         0.83799E+06
       0.0000      48594.8785         0.82905E+06
       0.0000      48635.2062         0.82021E+06
       0.0000      48675.5339         0.81152E+06
       0.0000      48715.8616         0.80306E+06
       0.0000      48756.1893         0.79485E+06
       0.0000      48796.5170         0.78690E+06
       0.0000      48836.8447         0.77919E+06
       0.0000      48877.1724         0.77169E+06
       0.0000      48917.5001         0.76433E+06
       0.0000      48957.8278         0.75710E+06
       0.0000      48998.1555         0.74996E+06
       0.0000      49038.4832         0.74290E+06
       0.0000      49078.8109         0.73593E+06
       0.0000      49119.1386         0.72908E+06
       0.0000      49159.4663         0.72236E+06
       0.0000      49199.7940         0.71580E+06
       0.0000      49240.1217         0.70942E+06
       0.0000      49280.4494         0.70324E+06
       0.0000      49320.7771         0.69725E+06
       0.0000      49361.1048         0.69144E+06
       0.0000      49401.4325         0.68578E+06
       0.0000      49441.7602         0.68025E+06
       0.0000      49482.0879         0.67481E+06
       0.0000      49522.4156         0.66943E+06
       0.0000      49562.7433         0.66410E+06
       0.0000      49603.0710         0.65879E+06
       0.0000      49643.3987         0.65350E+06
       0.0000      49683.7264         0.64825E+06
       0.0000      49724.0541         0.64302E+06
       0.0000      49764.3818         0.63785E+06
       0.0000      49804.7095         0.63272E+06
       0.0000      49845.0372         0.62762E+06
       0.0000      49885.3649         0.62255E+06
       0.0000      49925.6926         0.61746E+06
       0.0000      49966.0203         0.61235E+06
       0.0000      50006.3480         0.60716E+06
       0.0000      50046.6757         0.60189E+06
       0.0000      50087.0034         0.59650E+06
       0.0000      50127.3311         0.59100E+06
       0.0000      50167.6588         0.58538E+06
       0.0000      50207.9865         0.57966E+06
       0.0000      50248.3142         0.57387E+06
       0.0000      50288.6419         0.56806E+06
       0.0000      50328.9696         0.56225E+06
       0.0000      50369.2973         0.55648E+06
       0.0000      50409.6250         0.55078E+06
       0.0000      50449.9527         0.54515E+06
       0.0000      50490.2804         0.53960E+06
       0.0000      50530.6081         0.53413E+06
       0.0000      50570.9358         0.52874E+06
       0.0000      50611.2635         0.52340E+06
       0.0000      50651.5912         0.51810E+06
       0.0000      50691.9189         0.51286E+06
       0.0000      50732.2466         0.50765E+06
       0.0000      50772.5743         0.50248E+06
       0.0000      50812.9020         0.49737E+06
       0.0000      50853.2297         0.49233E+06
       0.0000      50893.5574         0.48736E+06
       0.0000      50933.8851         0.48247E+06
       0.0000      50974.2128         0.47767E+06
       0.0000      51014.5405         0.47298E+06
       0.0000      51054.8682         0.46837E+06
       0.0000      51095.1959         0.46386E+06
       0.0000      51135.5236         0.45942E+06
       0.0000      51175.8513         0.45506E+06
       0.0000      51216.1790         0.45076E+06
       0.0000      51256.5067         0.44652E+06
       0.0000      51296.8344         0.44233E+06
       0.0000      51337.1621         0.43820E+06
       0.0000      51377.4898         0.43413E+06
       0.0000      51417.8175         0.43012E+06
       0.0000      51458.1452         0.42618E+06
       0.0000      51498.4729         0.42231E+06
       0.0000      51538.8006         0.41851E+06
       0.0000      51579.1283         0.41478E+06
       0.0000      51619.4560         0.41113E+06
       0.0000      51659.7837         0.40754E+06
       0.0000      51700.1114         0.40401E+06
       0.0000      51740.4391         0.40054E+06
       0.0000      51780.7668         0.39711E+06
       0.0000      51821.0945         0.39373E+06
       0.0000      51861.4222         0.39039E+06
       0.0000      51901.7499         0.38710E+06
       0.0000      51942.0776         0.38384E+06
       0.0000      51982.4053         0.38063E+06
       0.0000      52022.7330         0.37746E+06
       0.0000      52063.0607         0.37432E+06
       0.0000      52103.3884         0.37123E+06
       0.0000      52143.7161         0.36816E+06
       0.0000      52184.0438         0.36512E+06
       0.0000      52224.3715         0.36209E+06
       0.0000      52264.6992         0.35907E+06
       0.0000      52305.0269         0.35606E+06
       0.0000      52345.3546         0.35305E+06
       0.0000      52385.6823         0.35004E+06
       0.0000      52426.0100         0.34704E+06
       0.0000      52466.3377         0.34406E+06
       0.0000      52506.6654         0.34109E+06
       0.0000      52546.9931         0.33814E+06
       0.0000      52587.3208         0.33522E+06
       0.0000      52627.6485         0.33233E+06
       0.0000      52667.9762         0.32948E+06
       0.0000      52708.3039         0.32667E+06
       0.0000      52748.6316         0.32389E+06
       0.0000      52788.9593         0.32115E+06
       0.0000      52829.2870         0.31844E+06
       0.0000      52869.6147         0.31577E+06
       0.0000      52909.9424         0.31313E+06
       0.0000      52950.2701         0.31052E+06
       0.0000      52990.5978         0.30795E+06
       0.0000      53030.9255         0.30540E+06
       0.0000      53071.2532         0.30290E+06
       0.0000      53111.5809         0.30042E+06
       0.0000      53151.9086         0.29799E+06
       0.0000      53192.2363         0.29559E+06
       0.0000      53232.5640         0.29323E+06
       0.0000      53272.8917         0.29091E+06
       0.0000      53313.2194         0.28863E+06
       0.0000      53353.5471         0.28638E+06
       0.0000      53393.8748         0.28417E+06
       0.0000      53434.2025         0.28200E+06
       0.0000      53474.5302         0.27985E+06
       0.0000      53514.8579         0.27774E+06
       0.0000      53555.1856         0.27565E+06
       0.0000      53595.5133         0.27360E+06
       0.0000      53635.8410         0.27157E+06
       0.0000      53676.1687         0.26958E+06
       0.0000      53716.4964         0.26762E+06
       0.0000      53756.8241         0.26568E+06
       0.0000      53797.1518         0.26378E+06
       0.0000      53837.4795         0.26190E+06
       0.0000      53877.8072         0.26006E+06
       0.0000      53918.1349         0.25825E+06
       0.0000      53958.4626         0.25646E+06
       0.0000      53998.7903         0.25470E+06
       0.0000      54039.1180         0.25297E+06
       0.0000      54079.4457         0.25126E+06
       0.0000      54119.7734         0.24958E+06
       0.0000      54160.1011         0.24791E+06
       0.0000      54200.4288         0.24627E+06
       0.0000      54240.7565         0.24466E+06
       0.0000      54281.0842         0.24306E+06
       0.0000      54321.4119         0.24149E+06
       0.0000      54361.7396         0.23994E+06
       0.0000      54402.0673         0.23841E+06
       0.0000      54442.3950         0.23689E+06
       0.0000      54482.7227         0.23539E+06
       0.0000      54523.0504         0.23390E+06
       0.0000      54563.3781         0.23243E+06
       0.0000      54603.7058         0.23097E+06
       0.0000      54644.0335         0.22952E+06
       0.0000      54684.3612         0.22808E+06
       0.0000      54724.6889         0.22666E+06
       0.0000      54765.0166         0.22526E+06
       0.0000      54805.3443         0.22387E+06
       0.0000      54845.6720         0.22250E+06
       0.0000      54885.9997         0.22115E+06
       0.0000      54926.3274         0.21981E+06
       0.0000      54966.6551         0.21849E+06
       0.0000      55006.9828         0.21719E+06
       0.0000      55047.3105         0.21590E+06
       0.0000      55087.6382         0.21463E+06
       0.0000      55127.9659         0.21338E+06
       0.0000      55168.2936         0.21214E+06
       0.0000      55208.6213         0.21092E+06
       0.0000      55248.9490         0.20972E+06
       0.0000      55289.2767         0.20853E+06
       0.0000      55329.6044         0.20736E+06
       0.0000      55369.9321         0.20620E+06
       0.0000      55410.2598         0.20506E+06
       0.0000      55450.5875         0.20394E+06
       0.0000      55490.9152         0.20283E+06
       0.0000      55531.2429         0.20174E+06
       0.0000      55571.5706         0.20067E+06
       0.0000      55611.8983         0.19961E+06
       0.0000      55652.2260         0.19856E+06
       0.0000      55692.5537         0.19754E+06
       0.0000      55732.8814         0.19652E+06
       0.0000      55773.2091         0.19552E+06
       0.0000      55813.5368         0.19453E+06
       0.0000      55853.8645         0.19356E+06
       0.0000      55894.1922         0.19260E+06
       0.0000      55934.5199         0.19166E+06
       0.0000      55974.8476         0.19072E+06
       0.0000      56015.1753         0.18980E+06
       0.0000      56055.5030         0.18890E+06
       0.0000      56095.8307         0.18800E+06
       0.0000      56136.1584         0.18712E+06
       0.0000      56176.4861         0.18625E+06
       0.0000      56216.8138         0.18540E+06
       0.0000      56257.1415         0.18455E+06
       0.0000      56297.4692         0.18372E+06
       0.0000      56337.7969         0.18290E+06
       0.0000      56378.1246         0.18209E+06
       0.0000      56418.4523         0.18129E+06
       0.0000      56458.7800         0.18050E+06
       0.0000      56499.1077         0.17972E+06
       0.0000      56539.4354         0.17896E+06
       0.0000      56579.7631         0.17820E+06
       0.0000      56620.0908         0.17745E+06
       0.0000      56660.4185         0.17671E+06
       0.0000      56700.7462         0.17598E+06
       0.0000      56741.0739         0.17526E+06
       0.0000      56781.4016         0.17455E+06
       0.0000      56821.7293         0.17384E+06
       0.0000      56862.0570         0.17315E+06
       0.0000      56902.3847         0.17246E+06
       0.0000      56942.7124         0.17178E+06
       0.0000      56983.0401         0.17110E+06
       0.0000      57023.3678         0.17044E+06
       0.0000      57063.6955         0.16978E+06
       0.0000      57104.0232         0.16913E+06
       0.0000      57144.3509         0.16849E+06
       0.0000      57184.6786         0.16786E+06
       0.0000      57225.0063         0.16724E+06
       0.0000      57265.3340         0.16662E+06
       0.0000      57305.6617         0.16601E+06
       0.0000      57345.9894         0.16541E+06
       0.0000      57386.3171         0.16482E+06
       0.0000      57426.6448         0.16423E+06
       0.0000      57466.9725         0.16366E+06
       0.0000      57507.3002         0.16309E+06
       0.0000      57547.6279         0.16252E+06
       0.0000      57587.9556         0.16197E+06
       0.0000      57628.2833         0.16142E+06
       0.0000      57668.6110         0.16088E+06
       0.0000      57708.9387         0.16035E+06
       0.0000      57749.2664         0.15982E+06
       0.0000      57789.5941         0.15930E+06
       0.0000      57829.9218         0.15879E+06
       0.0000      57870.2495         0.15829E+06
       0.0000      57910.5772         0.15779E+06
       0.0000      57950.9049         0.15730E+06
       0.0000      57991.2326         0.15681E+06
       0.0000      58031.5603         0.15633E+06
       0.0000      58071.8880         0.15586E+06
       0.0000      58112.2157         0.15540E+06
       0.0000      58152.5434         0.15494E+06
       0.0000      58192.8711         0.15448E+06
       0.0000      58233.1988         0.15404E+06
       0.0000      58273.5265         0.15360E+06
       0.0000      58313.8542         0.15316E+06
       0.0000      58354.1819         0.15273E+06
       0.0000      58394.5096         0.15231E+06
       0.0000      58434.8373         0.15189E+06
       0.0000      58475.1650         0.15148E+06
       0.0000      58515.4927         0.15107E+06
       0.0000      58555.8204         0.15067E+06
       0.0000      58596.1481         0.15028E+06
       0.0000      58636.4758         0.14989E+06
       0.0000      58676.8035         0.14950E+06
       0.0000      58717.1312         0.14912E+06
       0.0000      58757.4589         0.14875E+06
       0.0000      58797.7866         0.14838E+06
       0.0000      58838.1143         0.14801E+06
       0.0000      58878.4420         0.14765E+06
       0.0000      58918.7697         0.14730E+06
       0.0000      58959.0974         0.14695E+06
       0.0000      58999.4251         0.14660E+06
       0.0000      59039.7528         0.14626E+06
       0.0000      59080.0805         0.14592E+06
       0.0000      59120.4082         0.14559E+06
       0.0000      59160.7359         0.14526E+06
       0.0000      59201.0636         0.14494E+06
       0.0000      59241.3913         0.14462E+06
       0.0000      59281.7190         0.14430E+06
       0.0000      59322.0467         0.14399E+06
       0.0000      59362.3744         0.14368E+06
       0.0000      59402.7021         0.14338E+06
       0.0000      59443.0298         0.14308E+06
       0.0000      59483.3575         0.14278E+06
       0.0000      59523.6852         0.14249E+06
       0.0000      59564.0129         0.14221E+06
       0.0000      59604.3406         0.14192E+06
       0.0000      59644.6683         0.14164E+06
       0.0000      59684.9960         0.14137E+06
       0.0000      59725.3237         0.14110E+06
       0.0000      59765.6514         0.14083E+06
       0.0000      59805.9791         0.14057E+06
       0.0000      59846.3068         0.14031E+06
       0.0000      59886.6345         0.14005E+06
       0.0000      59926.9622         0.13980E+06
       0.0000      59967.2899         0.13955E+06
       0.0000      60007.6176         0.13931E+06
       0.0000      60047.9453         0.13907E+06
       0.0000      60088.2730         0.13883E+06
       0.0000      60128.6007         0.13859E+06
       0.0000      60168.9284         0.13836E+06
       0.0000      60209.2561         0.13814E+06
       0.0000      60249.5838         0.13791E+06
       0.0000      60289.9115         0.13769E+06
       0.0000      60330.2392         0.13748E+06
       0.0000      60370.5669         0.13726E+06
       0.0000      60410.8946         0.13705E+06
       0.0000      60451.2223         0.13685E+06
       0.0000      60491.5500         0.13664E+06
       0.0000      60531.8777         0.13644E+06
       0.0000      60572.2054         0.13624E+06
       0.0000      60612.5331         0.13605E+06
       0.0000      60652.8608         0.13586E+06
       0.0000      60693.1885         0.13567E+06
       0.0000      60733.5162         0.13549E+06
       0.0000      60773.8439         0.13530E+06
       0.0000      60814.1716         0.13513E+06
       0.0000      60854.4993         0.13495E+06
       0.0000      60894.8270         0.13478E+06
       0.0000      60935.1547         0.13461E+06
       0.0000      60975.4824         0.13444E+06
       0.0000      61015.8101         0.13428E+06
       0.0000      61056.1378         0.13411E+06
       0.0000      61096.4655         0.13396E+06
       0.0000      61136.7932         0.13380E+06
       0.0000      61177.1209         0.13365E+06
       0.0000      61217.4486         0.13350E+06
       0.0000      61257.7763         0.13335E+06
       0.0000      61298.1040         0.13320E+06
       0.0000      61338.4317         0.13306E+06
       0.0000      61378.7594         0.13292E+06
       0.0000      61419.0871         0.13278E+06
       0.0000      61459.4148         0.13265E+06
       0.0000      61499.7425         0.13252E+06
       0.0000      61540.0702         0.13239E+06
       0.0000      61580.3979         0.13226E+06
       0.0000      61620.7256         0.13214E+06
       0.0000      61661.0533         0.13202E+06
       0.0000      61701.3810         0.13190E+06
       0.0000      61741.7087         0.13178E+06
       0.0000      61782.0364         0.13166E+06
       0.0000      61822.3641         0.13155E+06
       0.0000      61862.6918         0.13144E+06
       0.0000      61903.0195         0.13134E+06
       0.0000      61943.3472         0.13123E+06
       0.0000      61983.6749         0.13113E+06
       0.0000      62024.0026         0.13103E+06
       0.0000      62064.3303         0.13093E+06
       0.0000      62104.6580         0.13084E+06
       0.0000      62144.9857         0.13074E+06
       0.0000      62185.3134         0.13065E+06
       0.0000      62225.6411         0.13056E+06
       0.0000      62265.9688         0.13048E+06
       0.0000      62306.2965         0.13040E+06
       0.0000      62346.6242         0.13031E+06
       0.0000      62386.9519         0.13023E+06
       0.0000      62427.2796         0.13016E+06
       0.0000      62467.6073         0.13008E+06
       0.0000      62507.9350         0.13001E+06
       0.0000      62548.2627         0.12994E+06
       0.0000      62588.5904         0.12987E+06
       0.0000      62628.9181         0.12981E+06
       0.0000      62669.2458         0.12974E+06
       0.0000      62709.5735         0.12968E+06
       0.0000      62749.9012         0.12962E+06
       0.0000      62790.2289         0.12956E+06
       0.0000      62830.5566         0.12951E+06
       0.0000      62870.8843         0.12946E+06
       0.0000      62911.2120         0.12940E+06
       0.0000      62951.5397         0.12935E+06
       0.0000      62991.8674         0.12931E+06
       0.0000      63032.1951         0.12926E+06
       0.0000      63072.5228         0.12922E+06
       0.0000      63112.8505         0.12918E+06
       0.0000      63153.1782         0.12914E+06
       0.0000      63193.5059         0.12910E+06
       0.0000      63233.8336         0.12907E+06
       0.0000      63274.1613         0.12904E+06
       0.0000      63314.4890         0.12900E+06
       0.0000      63354.8167         0.12898E+06
       0.0000      63395.1444         0.12895E+06
       0.0000      63435.4721         0.12892E+06
       0.0000      63475.7998         0.12890E+06
       0.0000      63516.1275         0.12888E+06
       0.0000      63556.4552         0.12886E+06
       0.0000      63596.7829         0.12884E+06
       0.0000      63637.1106         0.12883E+06
       0.0000      63677.4383         0.12881E+06
       0.0000      63717.7660         0.12880E+06
       0.0000      63758.0937         0.12879E+06
       0.0000      63798.4214         0.12878E+06
       0.0000      63838.7491         0.12878E+06
       0.0000      63879.0768         0.12877E+06
       0.0000      63919.4045         0.12877E+06
       0.0000      63959.7322         0.12877E+06
       0.0000      64000.0599         0.12877E+06
       0.0000      64040.3876         0.12878E+06
       0.0000      64080.7153         0.12878E+06
       0.0000      64121.0430         0.12879E+06
       0.0000      64161.3707         0.12880E+06
       0.0000      64201.6984         0.12881E+06
       0.0000      64242.0261         0.12882E+06
       0.0000      64282.3538         0.12883E+06
       0.0000      64322.6815         0.12885E+06
       0.0000      64363.0092         0.12887E+06
       0.0000      64403.3369         0.12889E+06
       0.0000      64443.6646         0.12891E+06
       0.0000      64483.9923         0.12893E+06
       0.0000      64524.3200         0.12896E+06
       0.0000      64564.6477         0.12899E+06
       0.0000      64604.9754         0.12901E+06
       0.0000      64645.3031         0.12904E+06
       0.0000      64685.6308         0.12908E+06
       0.0000      64725.9585         0.12911E+06
       0.0000      64766.2862         0.12915E+06
       0.0000      64806.6139         0.12918E+06
       0.0000      64846.9416         0.12922E+06
       0.0000      64887.2693         0.12926E+06
       0.0000      64927.5970         0.12931E+06
       0.0000      64967.9247         0.12935E+06
       0.0000      65008.2524         0.12940E+06
       0.0000      65048.5801         0.12945E+06
       0.0000      65088.9078         0.12950E+06
       0.0000      65129.2355         0.12955E+06
       0.0000      65169.5632         0.12960E+06
       0.0000      65209.8909         0.12965E+06
       0.0000      65250.2186         0.12971E+06
       0.0000      65290.5463         0.12977E+06
       0.0000      65330.8740         0.12983E+06
       0.0000      65371.2017         0.12989E+06
       0.0000      65411.5294         0.12996E+06
       0.0000      65451.8571         0.13002E+06
       0.0000      65492.1848         0.13009E+06
       0.0000      65532.5125         0.13016E+06
       0.0000      65572.8402         0.13023E+06
       0.0000      65613.1679         0.13030E+06
       0.0000      65653.4956         0.13037E+06
       0.0000      65693.8233         0.13045E+06
       0.0000      65734.1510         0.13053E+06
       0.0000      65774.4787         0.13060E+06
       0.0000      65814.8064         0.13069E+06
       0.0000      65855.1341         0.13077E+06
       0.0000      65895.4618         0.13085E+06
       0.0000      65935.7895         0.13094E+06
       0.0000      65976.1172         0.13102E+06
       0.0000      66016.4449         0.13111E+06
       0.0000      66056.7726         0.13121E+06
       0.0000      66097.1003         0.13130E+06
       0.0000      66137.4280         0.13139E+06
       0.0000      66177.7557         0.13149E+06
       0.0000      66218.0834         0.13159E+06
       0.0000      66258.4111         0.13168E+06
       0.0000      66298.7388         0.13179E+06
       0.0000      66339.0665         0.13189E+06
       0.0000      66379.3942         0.13199E+06
       0.0000      66419.7219         0.13210E+06
       0.0000      66460.0496         0.13221E+06
       0.0000      66500.3773         0.13232E+06
       0.0000      66540.7050         0.13243E+06
       0.0000      66581.0327         0.13254E+06
       0.0000      66621.3604         0.13266E+06
       0.0000      66661.6881         0.13277E+06
       0.0000      66702.0158         0.13289E+06
       0.0000      66742.3435         0.13301E+06
       0.0000      66782.6712         0.13313E+06
       0.0000      66822.9989         0.13326E+06
       0.0000      66863.3266         0.13338E+06
       0.0000      66903.6543         0.13351E+06
       0.0000      66943.9820         0.13364E+06
       0.0000      66984.3097         0.13377E+06
       0.0000      67024.6374         0.13390E+06
       0.0000      67064.9651         0.13403E+06
       0.0000      67105.2928         0.13417E+06
       0.0000      67145.6205         0.13430E+06
       0.0000      67185.9482         0.13444E+06
       0.0000      67226.2759         0.13458E+06
       0.0000      67266.6036         0.13473E+06
       0.0000      67306.9313         0.13487E+06
       0.0000      67347.2590         0.13502E+06
       0.0000      67387.5867         0.13516E+06
       0.0000      67427.9144         0.13531E+06
       0.0000      67468.2421         0.13546E+06
       0.0000      67508.5698         0.13562E+06
       0.0000      67548.8975         0.13577E+06
       0.0000      67589.2252         0.13593E+06
       0.0000      67629.5529         0.13609E+06
       0.0000      67669.8806         0.13625E+06
       0.0000      67710.2083         0.13641E+06
       0.0000      67750.5360         0.13657E+06
       0.0000      67790.8637         0.13674E+06
       0.0000      67831.1914         0.13690E+06
       0.0000      67871.5191         0.13707E+06
       0.0000      67911.8468         0.13724E+06
       0.0000      67952.1745         0.13741E+06
       0.0000      67992.5022         0.13759E+06
       0.0000      68032.8299         0.13777E+06
       0.0000      68073.1576         0.13794E+06
       0.0000      68113.4853         0.13812E+06
       0.0000      68153.8130         0.13830E+06
       0.0000      68194.1407         0.13849E+06
       0.0000      68234.4684         0.13867E+06
       0.0000      68274.7961         0.13886E+06
       0.0000      68315.1238         0.13905E+06
       0.0000      68355.4515         0.13924E+06
       0.0000      68395.7792         0.13943E+06
       0.0000      68436.1069         0.13962E+06
       0.0000      68476.4346         0.13982E+06
       0.0000      68516.7623         0.14002E+06
       0.0000      68557.0900         0.14022E+06
       0.0000      68597.4177         0.14042E+06
       0.0000      68637.7454         0.14062E+06
       0.0000      68678.0731         0.14083E+06
       0.0000      68718.4008         0.14104E+06
       0.0000      68758.7285         0.14125E+06
       0.0000      68799.0562         0.14146E+06
       0.0000      68839.3839         0.14167E+06
       0.0000      68879.7116         0.14189E+06
       0.0000      68920.0393         0.14210E+06
       0.0000      68960.3670         0.14232E+06
       0.0000      69000.6947         0.14254E+06
       0.0000      69041.0224         0.14276E+06
       0.0000      69081.3501         0.14299E+06
       0.0000      69121.6778         0.14322E+06
       0.0000      69162.0055         0.14344E+06
       0.0000      69202.3332         0.14368E+06
       0.0000      69242.6609         0.14391E+06
       0.0000      69282.9886         0.14414E+06
       0.0000      69323.3163         0.14438E+06
       0.0000      69363.6440         0.14462E+06
       0.0000      69403.9717         0.14486E+06
       0.0000      69444.2994         0.14510E+06
       0.0000      69484.6271         0.14534E+06
       0.0000      69524.9548         0.14559E+06
       0.0000      69565.2825         0.14584E+06
       0.0000      69605.6102         0.14609E+06
       0.0000      69645.9379         0.14634E+06
       0.0000      69686.2656         0.14660E+06
       0.0000      69726.5933         0.14685E+06
       0.0000      69766.9210         0.14711E+06
       0.0000      69807.2487         0.14737E+06
       0.0000      69847.5764         0.14764E+06
       0.0000      69887.9041         0.14790E+06
       0.0000      69928.2318         0.14817E+06
       0.0000      69968.5595         0.14844E+06
       0.0000      70008.8872         0.14871E+06
       0.0000      70049.2149         0.14898E+06
       0.0000      70089.5426         0.14926E+06
       0.0000      70129.8703         0.14954E+06
       0.0000      70170.1980         0.14982E+06
       0.0000      70210.5257         0.15010E+06
       0.0000      70250.8534         0.15038E+06
       0.0000      70291.1811         0.15067E+06
       0.0000      70331.5088         0.15096E+06
       0.0000      70371.8365         0.15125E+06
       0.0000      70412.1642         0.15154E+06
       0.0000      70452.4919         0.15184E+06
       0.0000      70492.8196         0.15213E+06
       0.0000      70533.1473         0.15243E+06
       0.0000      70573.4750         0.15274E+06
       0.0000      70613.8027         0.15304E+06
       0.0000      70654.1304         0.15335E+06
       0.0000      70694.4581         0.15366E+06
       0.0000      70734.7858         0.15397E+06
       0.0000      70775.1135         0.15428E+06
       0.0000      70815.4412         0.15460E+06
       0.0000      70855.7689         0.15492E+06
       0.0000      70896.0966         0.15524E+06
       0.0000      70936.4243         0.15556E+06
       0.0000      70976.7520         0.15589E+06
       0.0000      71017.0797         0.15621E+06
       0.0000      71057.4074         0.15654E+06
       0.0000      71097.7351         0.15687E+06
       0.0000      71138.0628         0.15721E+06
       0.0000      71178.3905         0.15755E+06
       0.0000      71218.7182         0.15789E+06
       0.0000      71259.0459         0.15823E+06
       0.0000      71299.3736         0.15857E+06
       0.0000      71339.7013         0.15892E+06
       0.0000      71380.0290         0.15927E+06
       0.0000      71420.3567         0.15962E+06
       0.0000      71460.6844         0.15998E+06
       0.0000      71501.0121         0.16034E+06
       0.0000      71541.3398         0.16070E+06
       0.0000      71581.6675         0.16106E+06
       0.0000      71621.9952         0.16142E+06
       0.0000      71662.3229         0.16179E+06
       0.0000      71702.6506         0.16216E+06
       0.0000      71742.9783         0.16253E+06
       0.0000      71783.3060         0.16291E+06
       0.0000      71823.6337         0.16329E+06
       0.0000      71863.9614         0.16367E+06
       0.0000      71904.2891         0.16405E+06
       0.0000      71944.6168         0.16444E+06
       0.0000      71984.9445         0.16483E+06
       0.0000      72025.2722         0.16522E+06
       0.0000      72065.5999         0.16561E+06
       0.0000      72105.9276         0.16601E+06
       0.0000      72146.2553         0.16641E+06
       0.0000      72186.5830         0.16681E+06
       0.0000      72226.9107         0.16722E+06
       0.0000      72267.2384         0.16762E+06
       0.0000      72307.5661         0.16803E+06
       0.0000      72347.8938         0.16845E+06
       0.0000      72388.2215         0.16887E+06
       0.0000      72428.5492         0.16929E+06
       0.0000      72468.8769         0.16971E+06
       0.0000      72509.2046         0.17013E+06
       0.0000      72549.5323         0.17056E+06
       0.0000      72589.8600         0.17099E+06
