 full2D RR spectrum in 10**-30 cm**2 sr**-1 molec**-1
      vib freq    incident freq      dsigma/dOmega
       0.0000      32262.1600         0.12066E+05
       0.0000      32302.4877         0.12189E+05
       0.0000      32342.8154         0.12314E+05
       0.0000      32383.1431         0.12441E+05
       0.0000      32423.4708         0.12569E+05
       0.0000      32463.7985         0.12698E+05
       0.0000      32504.1262         0.12830E+05
       0.0000      32544.4539         0.12963E+05
       0.0000      32584.7816         0.13097E+05
       0.0000      32625.1093         0.13233E+05
       0.0000      32665.4370         0.13371E+05
       0.0000      32705.7647         0.13511E+05
       0.0000      32746.0924         0.13653E+05
       0.0000      32786.4201         0.13796E+05
       0.0000      32826.7478         0.13941E+05
       0.0000      32867.0755         0.14088E+05
       0.0000      32907.4032         0.14237E+05
       0.0000      32947.7309         0.14388E+05
       0.0000      32988.0586         0.14540E+05
       0.0000      33028.3863         0.14695E+05
       0.0000      33068.7140         0.14852E+05
       0.0000      33109.0417         0.15010E+05
       0.0000      33149.3694         0.15171E+05
       0.0000      33189.6971         0.15334E+05
       0.0000      33230.0248         0.15499E+05
       0.0000      33270.3525         0.15666E+05
       0.0000      33310.6802         0.15836E+05
       0.0000      33351.0079         0.16008E+05
       0.0000      33391.3356         0.16182E+05
       0.0000      33431.6633         0.16358E+05
       0.0000      33471.9910         0.16537E+05
       0.0000      33512.3187         0.16718E+05
       0.0000      33552.6464         0.16901E+05
       0.0000      33592.9741         0.17087E+05
       0.0000      33633.3018         0.17276E+05
       0.0000      33673.6295         0.17467E+05
       0.0000      33713.9572         0.17660E+05
       0.0000      33754.2849         0.17857E+05
       0.0000      33794.6126         0.18056E+05
       0.0000      33834.9403         0.18258E+05
       0.0000      33875.2680         0.18462E+05
       0.0000      33915.5957         0.18670E+05
       0.0000      33955.9234         0.18880E+05
       0.0000      33996.2511         0.19093E+05
       0.0000      34036.5788         0.19310E+05
       0.0000      34076.9065         0.19529E+05
       0.0000      34117.2342         0.19751E+05
       0.0000      34157.5619         0.19977E+05
       0.0000      34197.8896         0.20206E+05
       0.0000      34238.2173         0.20438E+05
       0.0000      34278.5450         0.20673E+05
       0.0000      34318.8727         0.20912E+05
       0.0000      34359.2004         0.21154E+05
       0.0000      34399.5281         0.21400E+05
       0.0000      34439.8558         0.21649E+05
       0.0000      34480.1835         0.21902E+05
       0.0000      34520.5112         0.22159E+05
       0.0000      34560.8389         0.22420E+05
       0.0000      34601.1666         0.22684E+05
       0.0000      34641.4943         0.22952E+05
       0.0000      34681.8220         0.23224E+05
       0.0000      34722.1497         0.23501E+05
       0.0000      34762.4774         0.23781E+05
       0.0000      34802.8051         0.24066E+05
       0.0000      34843.1328         0.24355E+05
       0.0000      34883.4605         0.24649E+05
       0.0000      34923.7882         0.24946E+05
       0.0000      34964.1159         0.25249E+05
       0.0000      35004.4436         0.25556E+05
       0.0000      35044.7713         0.25868E+05
       0.0000      35085.0990         0.26185E+05
       0.0000      35125.4267         0.26506E+05
       0.0000      35165.7544         0.26833E+05
       0.0000      35206.0821         0.27165E+05
       0.0000      35246.4098         0.27502E+05
       0.0000      35286.7375         0.27844E+05
       0.0000      35327.0652         0.28192E+05
       0.0000      35367.3929         0.28546E+05
       0.0000      35407.7206         0.28905E+05
       0.0000      35448.0483         0.29270E+05
       0.0000      35488.3760         0.29640E+05
       0.0000      35528.7037         0.30017E+05
       0.0000      35569.0314         0.30400E+05
       0.0000      35609.3591         0.30790E+05
       0.0000      35649.6868         0.31185E+05
       0.0000      35690.0145         0.31588E+05
       0.0000      35730.3422         0.31997E+05
       0.0000      35770.6699         0.32412E+05
       0.0000      35810.9976         0.32835E+05
       0.0000      35851.3253         0.33265E+05
       0.0000      35891.6530         0.33702E+05
       0.0000      35931.9807         0.34147E+05
       0.0000      35972.3084         0.34599E+05
       0.0000      36012.6361         0.35060E+05
       0.0000      36052.9638         0.35528E+05
       0.0000      36093.2915         0.36004E+05
       0.0000      36133.6192         0.36488E+05
       0.0000      36173.9469         0.36981E+05
       0.0000      36214.2746         0.37483E+05
       0.0000      36254.6023         0.37994E+05
       0.0000      36294.9300         0.38514E+05
       0.0000      36335.2577         0.39043E+05
       0.0000      36375.5854         0.39582E+05
       0.0000      36415.9131         0.40130E+05
       0.0000      36456.2408         0.40688E+05
       0.0000      36496.5685         0.41257E+05
       0.0000      36536.8962         0.41836E+05
       0.0000      36577.2239         0.42426E+05
       0.0000      36617.5516         0.43027E+05
       0.0000      36657.8793         0.43639E+05
       0.0000      36698.2070         0.44263E+05
       0.0000      36738.5347         0.44898E+05
       0.0000      36778.8624         0.45546E+05
       0.0000      36819.1901         0.46206E+05
       0.0000      36859.5178         0.46878E+05
       0.0000      36899.8455         0.47564E+05
       0.0000      36940.1732         0.48263E+05
       0.0000      36980.5009         0.48976E+05
       0.0000      37020.8286         0.49703E+05
       0.0000      37061.1563         0.50445E+05
       0.0000      37101.4840         0.51201E+05
       0.0000      37141.8117         0.51972E+05
       0.0000      37182.1394         0.52760E+05
       0.0000      37222.4671         0.53563E+05
       0.0000      37262.7948         0.54382E+05
       0.0000      37303.1225         0.55219E+05
       0.0000      37343.4502         0.56073E+05
       0.0000      37383.7779         0.56945E+05
       0.0000      37424.1056         0.57835E+05
       0.0000      37464.4333         0.58744E+05
       0.0000      37504.7610         0.59672E+05
       0.0000      37545.0887         0.60621E+05
       0.0000      37585.4164         0.61590E+05
       0.0000      37625.7441         0.62580E+05
       0.0000      37666.0718         0.63592E+05
       0.0000      37706.3995         0.64626E+05
       0.0000      37746.7272         0.65683E+05
       0.0000      37787.0549         0.66764E+05
       0.0000      37827.3826         0.67870E+05
       0.0000      37867.7103         0.69001E+05
       0.0000      37908.0380         0.70157E+05
       0.0000      37948.3657         0.71341E+05
       0.0000      37988.6934         0.72552E+05
       0.0000      38029.0211         0.73792E+05
       0.0000      38069.3488         0.75061E+05
       0.0000      38109.6765         0.76360E+05
       0.0000      38150.0042         0.77691E+05
       0.0000      38190.3319         0.79054E+05
       0.0000      38230.6596         0.80450E+05
       0.0000      38270.9873         0.81881E+05
       0.0000      38311.3150         0.83348E+05
       0.0000      38351.6427         0.84851E+05
       0.0000      38391.9704         0.86393E+05
       0.0000      38432.2981         0.87974E+05
       0.0000      38472.6258         0.89597E+05
       0.0000      38512.9535         0.91261E+05
       0.0000      38553.2812         0.92969E+05
       0.0000      38593.6089         0.94723E+05
       0.0000      38633.9366         0.96524E+05
       0.0000      38674.2643         0.98374E+05
       0.0000      38714.5920         0.10027E+06
       0.0000      38754.9197         0.10223E+06
       0.0000      38795.2474         0.10423E+06
       0.0000      38835.5751         0.10630E+06
       0.0000      38875.9028         0.10842E+06
       0.0000      38916.2305         0.11061E+06
       0.0000      38956.5582         0.11286E+06
       0.0000      38996.8859         0.11517E+06
       0.0000      39037.2136         0.11755E+06
       0.0000      39077.5413         0.12001E+06
       0.0000      39117.8690         0.12254E+06
       0.0000      39158.1967         0.12515E+06
       0.0000      39198.5244         0.12784E+06
       0.0000      39238.8521         0.13062E+06
       0.0000      39279.1798         0.13348E+06
       0.0000      39319.5075         0.13644E+06
       0.0000      39359.8352         0.13949E+06
       0.0000      39400.1629         0.14265E+06
       0.0000      39440.4906         0.14591E+06
       0.0000      39480.8183         0.14929E+06
       0.0000      39521.1460         0.15278E+06
       0.0000      39561.4737         0.15640E+06
       0.0000      39601.8014         0.16014E+06
       0.0000      39642.1291         0.16402E+06
       0.0000      39682.4568         0.16805E+06
       0.0000      39722.7845         0.17222E+06
       0.0000      39763.1122         0.17655E+06
       0.0000      39803.4399         0.18105E+06
       0.0000      39843.7676         0.18572E+06
       0.0000      39884.0953         0.19059E+06
       0.0000      39924.4230         0.19564E+06
       0.0000      39964.7507         0.20091E+06
       0.0000      40005.0784         0.20640E+06
       0.0000      40045.4061         0.21212E+06
       0.0000      40085.7338         0.21809E+06
       0.0000      40126.0615         0.22433E+06
       0.0000      40166.3892         0.23084E+06
       0.0000      40206.7169         0.23766E+06
       0.0000      40247.0446         0.24479E+06
       0.0000      40287.3723         0.25227E+06
       0.0000      40327.7000         0.26011E+06
       0.0000      40368.0277         0.26834E+06
       0.0000      40408.3554         0.27699E+06
       0.0000      40448.6831         0.28609E+06
       0.0000      40489.0108         0.29567E+06
       0.0000      40529.3385         0.30577E+06
       0.0000      40569.6662         0.31643E+06
       0.0000      40609.9939         0.32768E+06
       0.0000      40650.3216         0.33959E+06
       0.0000      40690.6493         0.35219E+06
       0.0000      40730.9770         0.36555E+06
       0.0000      40771.3047         0.37972E+06
       0.0000      40811.6324         0.39477E+06
       0.0000      40851.9601         0.41076E+06
       0.0000      40892.2878         0.42777E+06
       0.0000      40932.6155         0.44587E+06
       0.0000      40972.9432         0.46513E+06
       0.0000      41013.2709         0.48562E+06
       0.0000      41053.5986         0.50740E+06
       0.0000      41093.9263         0.53051E+06
       0.0000      41134.2540         0.55495E+06
       0.0000      41174.5817         0.58071E+06
       0.0000      41214.9094         0.60767E+06
       0.0000      41255.2371         0.63563E+06
       0.0000      41295.5648         0.66425E+06
       0.0000      41335.8925         0.69301E+06
       0.0000      41376.2202         0.72115E+06
       0.0000      41416.5479         0.74765E+06
       0.0000      41456.8756         0.77123E+06
       0.0000      41497.2033         0.79038E+06
       0.0000      41537.5310         0.80354E+06
       0.0000      41577.8587         0.80937E+06
       0.0000      41618.1864         0.80707E+06
       0.0000      41658.5141         0.79671E+06
       0.0000      41698.8418         0.77944E+06
       0.0000      41739.1695         0.75738E+06
       0.0000      41779.4972         0.73330E+06
       0.0000      41819.8249         0.71004E+06
       0.0000      41860.1526         0.69003E+06
       0.0000      41900.4803         0.67497E+06
       0.0000      41940.8080         0.66561E+06
       0.0000      41981.1357         0.66197E+06
       0.0000      42021.4634         0.66337E+06
       0.0000      42061.7911         0.66873E+06
       0.0000      42102.1188         0.67673E+06
       0.0000      42142.4465         0.68605E+06
       0.0000      42182.7742         0.69550E+06
       0.0000      42223.1019         0.70416E+06
       0.0000      42263.4296         0.71146E+06
       0.0000      42303.7573         0.71714E+06
       0.0000      42344.0850         0.72127E+06
       0.0000      42384.4127         0.72416E+06
       0.0000      42424.7404         0.72633E+06
       0.0000      42465.0681         0.72837E+06
       0.0000      42505.3958         0.73089E+06
       0.0000      42545.7235         0.73439E+06
       0.0000      42586.0512         0.73922E+06
       0.0000      42626.3789         0.74566E+06
       0.0000      42666.7066         0.75389E+06
       0.0000      42707.0343         0.76410E+06
       0.0000      42747.3620         0.77655E+06
       0.0000      42787.6897         0.79147E+06
       0.0000      42828.0174         0.80908E+06
       0.0000      42868.3451         0.82947E+06
       0.0000      42908.6728         0.85261E+06
       0.0000      42949.0005         0.87827E+06
       0.0000      42989.3282         0.90612E+06
       0.0000      43029.6559         0.93562E+06
       0.0000      43069.9836         0.96613E+06
       0.0000      43110.3113         0.99684E+06
       0.0000      43150.6390         0.10268E+07
       0.0000      43190.9667         0.10552E+07
       0.0000      43231.2944         0.10811E+07
       0.0000      43271.6221         0.11039E+07
       0.0000      43311.9498         0.11231E+07
       0.0000      43352.2775         0.11387E+07
       0.0000      43392.6052         0.11509E+07
       0.0000      43432.9329         0.11602E+07
       0.0000      43473.2606         0.11677E+07
       0.0000      43513.5883         0.11747E+07
       0.0000      43553.9160         0.11826E+07
       0.0000      43594.2437         0.11925E+07
       0.0000      43634.5714         0.12049E+07
       0.0000      43674.8991         0.12196E+07
       0.0000      43715.2268         0.12355E+07
       0.0000      43755.5545         0.12509E+07
       0.0000      43795.8822         0.12637E+07
       0.0000      43836.2099         0.12719E+07
       0.0000      43876.5376         0.12737E+07
       0.0000      43916.8653         0.12686E+07
       0.0000      43957.1930         0.12566E+07
       0.0000      43997.5207         0.12392E+07
       0.0000      44037.8484         0.12182E+07
       0.0000      44078.1761         0.11955E+07
       0.0000      44118.5038         0.11733E+07
       0.0000      44158.8315         0.11529E+07
       0.0000      44199.1592         0.11356E+07
       0.0000      44239.4869         0.11217E+07
       0.0000      44279.8146         0.11113E+07
       0.0000      44320.1423         0.11041E+07
       0.0000      44360.4700         0.10994E+07
       0.0000      44400.7977         0.10966E+07
       0.0000      44441.1254         0.10948E+07
       0.0000      44481.4531         0.10936E+07
       0.0000      44521.7808         0.10924E+07
       0.0000      44562.1085         0.10912E+07
       0.0000      44602.4362         0.10899E+07
       0.0000      44642.7639         0.10887E+07
       0.0000      44683.0916         0.10878E+07
       0.0000      44723.4193         0.10874E+07
       0.0000      44763.7470         0.10876E+07
       0.0000      44804.0747         0.10885E+07
       0.0000      44844.4024         0.10900E+07
       0.0000      44884.7301         0.10919E+07
       0.0000      44925.0578         0.10943E+07
       0.0000      44965.3855         0.10968E+07
       0.0000      45005.7132         0.10997E+07
       0.0000      45046.0409         0.11029E+07
       0.0000      45086.3686         0.11067E+07
       0.0000      45126.6963         0.11112E+07
       0.0000      45167.0240         0.11166E+07
       0.0000      45207.3517         0.11231E+07
       0.0000      45247.6794         0.11308E+07
       0.0000      45288.0071         0.11397E+07
       0.0000      45328.3348         0.11496E+07
       0.0000      45368.6625         0.11604E+07
       0.0000      45408.9902         0.11715E+07
       0.0000      45449.3179         0.11823E+07
       0.0000      45489.6456         0.11922E+07
       0.0000      45529.9733         0.12005E+07
       0.0000      45570.3010         0.12065E+07
       0.0000      45610.6287         0.12098E+07
       0.0000      45650.9564         0.12102E+07
       0.0000      45691.2841         0.12079E+07
       0.0000      45731.6118         0.12034E+07
       0.0000      45771.9395         0.11976E+07
       0.0000      45812.2672         0.11914E+07
       0.0000      45852.5949         0.11856E+07
       0.0000      45892.9226         0.11809E+07
       0.0000      45933.2503         0.11774E+07
       0.0000      45973.5780         0.11750E+07
       0.0000      46013.9057         0.11731E+07
       0.0000      46054.2334         0.11711E+07
       0.0000      46094.5611         0.11681E+07
       0.0000      46134.8888         0.11636E+07
       0.0000      46175.2165         0.11572E+07
       0.0000      46215.5442         0.11488E+07
       0.0000      46255.8719         0.11386E+07
       0.0000      46296.1996         0.11272E+07
       0.0000      46336.5273         0.11150E+07
       0.0000      46376.8550         0.11026E+07
       0.0000      46417.1827         0.10904E+07
       0.0000      46457.5104         0.10789E+07
       0.0000      46497.8381         0.10683E+07
       0.0000      46538.1658         0.10586E+07
       0.0000      46578.4935         0.10498E+07
       0.0000      46618.8212         0.10417E+07
       0.0000      46659.1489         0.10342E+07
       0.0000      46699.4766         0.10272E+07
       0.0000      46739.8043         0.10203E+07
       0.0000      46780.1320         0.10137E+07
       0.0000      46820.4597         0.10072E+07
       0.0000      46860.7874         0.10010E+07
       0.0000      46901.1151         0.99500E+06
       0.0000      46941.4428         0.98939E+06
       0.0000      46981.7705         0.98419E+06
       0.0000      47022.0982         0.97940E+06
       0.0000      47062.4259         0.97501E+06
       0.0000      47102.7536         0.97092E+06
       0.0000      47143.0813         0.96701E+06
       0.0000      47183.4090         0.96318E+06
       0.0000      47223.7367         0.95932E+06
       0.0000      47264.0644         0.95534E+06
       0.0000      47304.3921         0.95124E+06
       0.0000      47344.7198         0.94696E+06
       0.0000      47385.0475         0.94258E+06
       0.0000      47425.3752         0.93813E+06
       0.0000      47465.7029         0.93372E+06
       0.0000      47506.0306         0.92947E+06
       0.0000      47546.3583         0.92548E+06
       0.0000      47586.6860         0.92180E+06
       0.0000      47627.0137         0.91845E+06
       0.0000      47667.3414         0.91536E+06
       0.0000      47707.6691         0.91237E+06
       0.0000      47747.9968         0.90930E+06
       0.0000      47788.3245         0.90593E+06
       0.0000      47828.6522         0.90201E+06
       0.0000      47868.9799         0.89739E+06
       0.0000      47909.3076         0.89199E+06
       0.0000      47949.6353         0.88582E+06
       0.0000      47989.9630         0.87903E+06
       0.0000      48030.2907         0.87183E+06
       0.0000      48070.6184         0.86443E+06
       0.0000      48110.9461         0.85708E+06
       0.0000      48151.2738         0.84991E+06
       0.0000      48191.6015         0.84302E+06
       0.0000      48231.9292         0.83639E+06
       0.0000      48272.2569         0.82994E+06
       0.0000      48312.5846         0.82355E+06
       0.0000      48352.9123         0.81709E+06
       0.0000      48393.2400         0.81045E+06
       0.0000      48433.5677         0.80355E+06
       0.0000      48473.8954         0.79639E+06
       0.0000      48514.2231         0.78900E+06
       0.0000      48554.5508         0.78144E+06
       0.0000      48594.8785         0.77382E+06
       0.0000      48635.2062         0.76621E+06
       0.0000      48675.5339         0.75871E+06
       0.0000      48715.8616         0.75138E+06
       0.0000      48756.1893         0.74425E+06
       0.0000      48796.5170         0.73733E+06
       0.0000      48836.8447         0.73062E+06
       0.0000      48877.1724         0.72408E+06
       0.0000      48917.5001         0.71767E+06
       0.0000      48957.8278         0.71136E+06
       0.0000      48998.1555         0.70513E+06
       0.0000      49038.4832         0.69897E+06
       0.0000      49078.8109         0.69288E+06
       0.0000      49119.1386         0.68689E+06
       0.0000      49159.4663         0.68101E+06
       0.0000      49199.7940         0.67525E+06
       0.0000      49240.1217         0.66963E+06
       0.0000      49280.4494         0.66415E+06
       0.0000      49320.7771         0.65881E+06
       0.0000      49361.1048         0.65359E+06
       0.0000      49401.4325         0.64845E+06
       0.0000      49441.7602         0.64337E+06
       0.0000      49482.0879         0.63832E+06
       0.0000      49522.4156         0.63326E+06
       0.0000      49562.7433         0.62818E+06
       0.0000      49603.0710         0.62306E+06
       0.0000      49643.3987         0.61791E+06
       0.0000      49683.7264         0.61273E+06
       0.0000      49724.0541         0.60755E+06
       0.0000      49764.3818         0.60240E+06
       0.0000      49804.7095         0.59732E+06
       0.0000      49845.0372         0.59231E+06
       0.0000      49885.3649         0.58740E+06
       0.0000      49925.6926         0.58258E+06
       0.0000      49966.0203         0.57782E+06
       0.0000      50006.3480         0.57309E+06
       0.0000      50046.6757         0.56835E+06
       0.0000      50087.0034         0.56356E+06
       0.0000      50127.3311         0.55869E+06
       0.0000      50167.6588         0.55373E+06
       0.0000      50207.9865         0.54869E+06
       0.0000      50248.3142         0.54360E+06
       0.0000      50288.6419         0.53848E+06
       0.0000      50328.9696         0.53337E+06
       0.0000      50369.2973         0.52831E+06
       0.0000      50409.6250         0.52332E+06
       0.0000      50449.9527         0.51841E+06
       0.0000      50490.2804         0.51357E+06
       0.0000      50530.6081         0.50880E+06
       0.0000      50570.9358         0.50408E+06
       0.0000      50611.2635         0.49939E+06
       0.0000      50651.5912         0.49473E+06
       0.0000      50691.9189         0.49008E+06
       0.0000      50732.2466         0.48545E+06
       0.0000      50772.5743         0.48084E+06
       0.0000      50812.9020         0.47625E+06
       0.0000      50853.2297         0.47171E+06
       0.0000      50893.5574         0.46722E+06
       0.0000      50933.8851         0.46280E+06
       0.0000      50974.2128         0.45844E+06
       0.0000      51014.5405         0.45416E+06
       0.0000      51054.8682         0.44994E+06
       0.0000      51095.1959         0.44579E+06
       0.0000      51135.5236         0.44170E+06
       0.0000      51175.8513         0.43767E+06
       0.0000      51216.1790         0.43368E+06
       0.0000      51256.5067         0.42973E+06
       0.0000      51296.8344         0.42583E+06
       0.0000      51337.1621         0.42198E+06
       0.0000      51377.4898         0.41817E+06
       0.0000      51417.8175         0.41441E+06
       0.0000      51458.1452         0.41070E+06
       0.0000      51498.4729         0.40704E+06
       0.0000      51538.8006         0.40344E+06
       0.0000      51579.1283         0.39989E+06
       0.0000      51619.4560         0.39639E+06
       0.0000      51659.7837         0.39293E+06
       0.0000      51700.1114         0.38952E+06
       0.0000      51740.4391         0.38614E+06
       0.0000      51780.7668         0.38278E+06
       0.0000      51821.0945         0.37945E+06
       0.0000      51861.4222         0.37614E+06
       0.0000      51901.7499         0.37285E+06
       0.0000      51942.0776         0.36959E+06
       0.0000      51982.4053         0.36635E+06
       0.0000      52022.7330         0.36315E+06
       0.0000      52063.0607         0.35998E+06
       0.0000      52103.3884         0.35686E+06
       0.0000      52143.7161         0.35377E+06
       0.0000      52184.0438         0.35073E+06
       0.0000      52224.3715         0.34772E+06
       0.0000      52264.6992         0.34475E+06
       0.0000      52305.0269         0.34180E+06
       0.0000      52345.3546         0.33887E+06
       0.0000      52385.6823         0.33596E+06
       0.0000      52426.0100         0.33308E+06
       0.0000      52466.3377         0.33021E+06
       0.0000      52506.6654         0.32736E+06
       0.0000      52546.9931         0.32455E+06
       0.0000      52587.3208         0.32177E+06
       0.0000      52627.6485         0.31902E+06
       0.0000      52667.9762         0.31630E+06
       0.0000      52708.3039         0.31363E+06
       0.0000      52748.6316         0.31099E+06
       0.0000      52788.9593         0.30838E+06
       0.0000      52829.2870         0.30581E+06
       0.0000      52869.6147         0.30327E+06
       0.0000      52909.9424         0.30075E+06
       0.0000      52950.2701         0.29827E+06
       0.0000      52990.5978         0.29582E+06
       0.0000      53030.9255         0.29339E+06
       0.0000      53071.2532         0.29099E+06
       0.0000      53111.5809         0.28863E+06
       0.0000      53151.9086         0.28629E+06
       0.0000      53192.2363         0.28399E+06
       0.0000      53232.5640         0.28172E+06
       0.0000      53272.8917         0.27948E+06
       0.0000      53313.2194         0.27727E+06
       0.0000      53353.5471         0.27510E+06
       0.0000      53393.8748         0.27295E+06
       0.0000      53434.2025         0.27083E+06
       0.0000      53474.5302         0.26873E+06
       0.0000      53514.8579         0.26666E+06
       0.0000      53555.1856         0.26462E+06
       0.0000      53595.5133         0.26260E+06
       0.0000      53635.8410         0.26061E+06
       0.0000      53676.1687         0.25865E+06
       0.0000      53716.4964         0.25671E+06
       0.0000      53756.8241         0.25479E+06
       0.0000      53797.1518         0.25290E+06
       0.0000      53837.4795         0.25104E+06
       0.0000      53877.8072         0.24920E+06
       0.0000      53918.1349         0.24739E+06
       0.0000      53958.4626         0.24560E+06
       0.0000      53998.7903         0.24382E+06
       0.0000      54039.1180         0.24207E+06
       0.0000      54079.4457         0.24034E+06
       0.0000      54119.7734         0.23863E+06
       0.0000      54160.1011         0.23694E+06
       0.0000      54200.4288         0.23527E+06
       0.0000      54240.7565         0.23362E+06
       0.0000      54281.0842         0.23199E+06
       0.0000      54321.4119         0.23039E+06
       0.0000      54361.7396         0.22880E+06
       0.0000      54402.0673         0.22723E+06
       0.0000      54442.3950         0.22569E+06
       0.0000      54482.7227         0.22416E+06
       0.0000      54523.0504         0.22266E+06
       0.0000      54563.3781         0.22117E+06
       0.0000      54603.7058         0.21970E+06
       0.0000      54644.0335         0.21825E+06
       0.0000      54684.3612         0.21681E+06
       0.0000      54724.6889         0.21539E+06
       0.0000      54765.0166         0.21399E+06
       0.0000      54805.3443         0.21261E+06
       0.0000      54845.6720         0.21125E+06
       0.0000      54885.9997         0.20990E+06
       0.0000      54926.3274         0.20858E+06
       0.0000      54966.6551         0.20727E+06
       0.0000      55006.9828         0.20597E+06
       0.0000      55047.3105         0.20470E+06
       0.0000      55087.6382         0.20344E+06
       0.0000      55127.9659         0.20220E+06
       0.0000      55168.2936         0.20097E+06
       0.0000      55208.6213         0.19976E+06
       0.0000      55248.9490         0.19857E+06
       0.0000      55289.2767         0.19739E+06
       0.0000      55329.6044         0.19623E+06
       0.0000      55369.9321         0.19508E+06
       0.0000      55410.2598         0.19395E+06
       0.0000      55450.5875         0.19283E+06
       0.0000      55490.9152         0.19173E+06
       0.0000      55531.2429         0.19064E+06
       0.0000      55571.5706         0.18957E+06
       0.0000      55611.8983         0.18851E+06
       0.0000      55652.2260         0.18746E+06
       0.0000      55692.5537         0.18643E+06
       0.0000      55732.8814         0.18541E+06
       0.0000      55773.2091         0.18441E+06
       0.0000      55813.5368         0.18341E+06
       0.0000      55853.8645         0.18244E+06
       0.0000      55894.1922         0.18147E+06
       0.0000      55934.5199         0.18051E+06
       0.0000      55974.8476         0.17957E+06
       0.0000      56015.1753         0.17864E+06
       0.0000      56055.5030         0.17773E+06
       0.0000      56095.8307         0.17682E+06
       0.0000      56136.1584         0.17593E+06
       0.0000      56176.4861         0.17505E+06
       0.0000      56216.8138         0.17418E+06
       0.0000      56257.1415         0.17332E+06
       0.0000      56297.4692         0.17247E+06
       0.0000      56337.7969         0.17163E+06
       0.0000      56378.1246         0.17080E+06
       0.0000      56418.4523         0.16999E+06
       0.0000      56458.7800         0.16918E+06
       0.0000      56499.1077         0.16839E+06
       0.0000      56539.4354         0.16760E+06
       0.0000      56579.7631         0.16683E+06
       0.0000      56620.0908         0.16606E+06
       0.0000      56660.4185         0.16531E+06
       0.0000      56700.7462         0.16456E+06
       0.0000      56741.0739         0.16382E+06
       0.0000      56781.4016         0.16310E+06
       0.0000      56821.7293         0.16238E+06
       0.0000      56862.0570         0.16167E+06
       0.0000      56902.3847         0.16098E+06
       0.0000      56942.7124         0.16029E+06
       0.0000      56983.0401         0.15961E+06
       0.0000      57023.3678         0.15893E+06
       0.0000      57063.6955         0.15827E+06
       0.0000      57104.0232         0.15762E+06
       0.0000      57144.3509         0.15697E+06
       0.0000      57184.6786         0.15633E+06
       0.0000      57225.0063         0.15570E+06
       0.0000      57265.3340         0.15508E+06
       0.0000      57305.6617         0.15447E+06
       0.0000      57345.9894         0.15387E+06
       0.0000      57386.3171         0.15327E+06
       0.0000      57426.6448         0.15268E+06
       0.0000      57466.9725         0.15210E+06
       0.0000      57507.3002         0.15152E+06
       0.0000      57547.6279         0.15096E+06
       0.0000      57587.9556         0.15040E+06
       0.0000      57628.2833         0.14985E+06
       0.0000      57668.6110         0.14930E+06
       0.0000      57708.9387         0.14876E+06
       0.0000      57749.2664         0.14823E+06
       0.0000      57789.5941         0.14771E+06
       0.0000      57829.9218         0.14719E+06
       0.0000      57870.2495         0.14668E+06
       0.0000      57910.5772         0.14618E+06
       0.0000      57950.9049         0.14568E+06
       0.0000      57991.2326         0.14519E+06
       0.0000      58031.5603         0.14470E+06
       0.0000      58071.8880         0.14422E+06
       0.0000      58112.2157         0.14375E+06
       0.0000      58152.5434         0.14329E+06
       0.0000      58192.8711         0.14283E+06
       0.0000      58233.1988         0.14237E+06
       0.0000      58273.5265         0.14192E+06
       0.0000      58313.8542         0.14148E+06
       0.0000      58354.1819         0.14105E+06
       0.0000      58394.5096         0.14062E+06
       0.0000      58434.8373         0.14019E+06
       0.0000      58475.1650         0.13977E+06
       0.0000      58515.4927         0.13936E+06
       0.0000      58555.8204         0.13895E+06
       0.0000      58596.1481         0.13854E+06
       0.0000      58636.4758         0.13815E+06
       0.0000      58676.8035         0.13775E+06
       0.0000      58717.1312         0.13736E+06
       0.0000      58757.4589         0.13698E+06
       0.0000      58797.7866         0.13660E+06
       0.0000      58838.1143         0.13623E+06
       0.0000      58878.4420         0.13586E+06
       0.0000      58918.7697         0.13550E+06
       0.0000      58959.0974         0.13514E+06
       0.0000      58999.4251         0.13479E+06
       0.0000      59039.7528         0.13444E+06
       0.0000      59080.0805         0.13410E+06
       0.0000      59120.4082         0.13376E+06
       0.0000      59160.7359         0.13342E+06
       0.0000      59201.0636         0.13309E+06
       0.0000      59241.3913         0.13276E+06
       0.0000      59281.7190         0.13244E+06
       0.0000      59322.0467         0.13212E+06
       0.0000      59362.3744         0.13181E+06
       0.0000      59402.7021         0.13150E+06
       0.0000      59443.0298         0.13120E+06
       0.0000      59483.3575         0.13090E+06
       0.0000      59523.6852         0.13060E+06
       0.0000      59564.0129         0.13031E+06
       0.0000      59604.3406         0.13002E+06
       0.0000      59644.6683         0.12973E+06
       0.0000      59684.9960         0.12945E+06
       0.0000      59725.3237         0.12918E+06
       0.0000      59765.6514         0.12890E+06
       0.0000      59805.9791         0.12864E+06
       0.0000      59846.3068         0.12837E+06
       0.0000      59886.6345         0.12811E+06
       0.0000      59926.9622         0.12785E+06
       0.0000      59967.2899         0.12759E+06
       0.0000      60007.6176         0.12734E+06
       0.0000      60047.9453         0.12710E+06
       0.0000      60088.2730         0.12685E+06
       0.0000      60128.6007         0.12661E+06
       0.0000      60168.9284         0.12638E+06
       0.0000      60209.2561         0.12614E+06
       0.0000      60249.5838         0.12591E+06
       0.0000      60289.9115         0.12568E+06
       0.0000      60330.2392         0.12546E+06
       0.0000      60370.5669         0.12524E+06
       0.0000      60410.8946         0.12502E+06
       0.0000      60451.2223         0.12481E+06
       0.0000      60491.5500         0.12460E+06
       0.0000      60531.8777         0.12439E+06
       0.0000      60572.2054         0.12419E+06
       0.0000      60612.5331         0.12399E+06
       0.0000      60652.8608         0.12379E+06
       0.0000      60693.1885         0.12359E+06
       0.0000      60733.5162         0.12340E+06
       0.0000      60773.8439         0.12321E+06
       0.0000      60814.1716         0.12302E+06
       0.0000      60854.4993         0.12284E+06
       0.0000      60894.8270         0.12266E+06
       0.0000      60935.1547         0.12248E+06
       0.0000      60975.4824         0.12231E+06
       0.0000      61015.8101         0.12213E+06
       0.0000      61056.1378         0.12196E+06
       0.0000      61096.4655         0.12180E+06
       0.0000      61136.7932         0.12163E+06
       0.0000      61177.1209         0.12147E+06
       0.0000      61217.4486         0.12131E+06
       0.0000      61257.7763         0.12116E+06
       0.0000      61298.1040         0.12100E+06
       0.0000      61338.4317         0.12085E+06
       0.0000      61378.7594         0.12071E+06
       0.0000      61419.0871         0.12056E+06
       0.0000      61459.4148         0.12042E+06
       0.0000      61499.7425         0.12028E+06
       0.0000      61540.0702         0.12014E+06
       0.0000      61580.3979         0.12000E+06
       0.0000      61620.7256         0.11987E+06
       0.0000      61661.0533         0.11974E+06
       0.0000      61701.3810         0.11961E+06
       0.0000      61741.7087         0.11949E+06
       0.0000      61782.0364         0.11936E+06
       0.0000      61822.3641         0.11924E+06
       0.0000      61862.6918         0.11912E+06
       0.0000      61903.0195         0.11901E+06
       0.0000      61943.3472         0.11889E+06
       0.0000      61983.6749         0.11878E+06
       0.0000      62024.0026         0.11867E+06
       0.0000      62064.3303         0.11857E+06
       0.0000      62104.6580         0.11846E+06
       0.0000      62144.9857         0.11836E+06
       0.0000      62185.3134         0.11826E+06
       0.0000      62225.6411         0.11816E+06
       0.0000      62265.9688         0.11806E+06
       0.0000      62306.2965         0.11797E+06
       0.0000      62346.6242         0.11788E+06
       0.0000      62386.9519         0.11779E+06
       0.0000      62427.2796         0.11770E+06
       0.0000      62467.6073         0.11762E+06
       0.0000      62507.9350         0.11753E+06
       0.0000      62548.2627         0.11745E+06
       0.0000      62588.5904         0.11737E+06
       0.0000      62628.9181         0.11730E+06
       0.0000      62669.2458         0.11722E+06
       0.0000      62709.5735         0.11715E+06
       0.0000      62749.9012         0.11708E+06
       0.0000      62790.2289         0.11701E+06
       0.0000      62830.5566         0.11694E+06
       0.0000      62870.8843         0.11688E+06
       0.0000      62911.2120         0.11681E+06
       0.0000      62951.5397         0.11675E+06
       0.0000      62991.8674         0.11669E+06
       0.0000      63032.1951         0.11664E+06
       0.0000      63072.5228         0.11658E+06
       0.0000      63112.8505         0.11653E+06
       0.0000      63153.1782         0.11648E+06
       0.0000      63193.5059         0.11643E+06
       0.0000      63233.8336         0.11638E+06
       0.0000      63274.1613         0.11633E+06
       0.0000      63314.4890         0.11629E+06
       0.0000      63354.8167         0.11625E+06
       0.0000      63395.1444         0.11621E+06
       0.0000      63435.4721         0.11617E+06
       0.0000      63475.7998         0.11613E+06
       0.0000      63516.1275         0.11610E+06
       0.0000      63556.4552         0.11607E+06
       0.0000      63596.7829         0.11604E+06
       0.0000      63637.1106         0.11601E+06
       0.0000      63677.4383         0.11598E+06
       0.0000      63717.7660         0.11595E+06
       0.0000      63758.0937         0.11593E+06
       0.0000      63798.4214         0.11591E+06
       0.0000      63838.7491         0.11589E+06
       0.0000      63879.0768         0.11587E+06
       0.0000      63919.4045         0.11585E+06
       0.0000      63959.7322         0.11584E+06
       0.0000      64000.0599         0.11582E+06
       0.0000      64040.3876         0.11581E+06
       0.0000      64080.7153         0.11580E+06
       0.0000      64121.0430         0.11579E+06
       0.0000      64161.3707         0.11579E+06
       0.0000      64201.6984         0.11578E+06
       0.0000      64242.0261         0.11578E+06
       0.0000      64282.3538         0.11578E+06
       0.0000      64322.6815         0.11578E+06
       0.0000      64363.0092         0.11578E+06
       0.0000      64403.3369         0.11578E+06
       0.0000      64443.6646         0.11579E+06
       0.0000      64483.9923         0.11580E+06
       0.0000      64524.3200         0.11581E+06
       0.0000      64564.6477         0.11582E+06
       0.0000      64604.9754         0.11583E+06
       0.0000      64645.3031         0.11584E+06
       0.0000      64685.6308         0.11586E+06
       0.0000      64725.9585         0.11587E+06
       0.0000      64766.2862         0.11589E+06
       0.0000      64806.6139         0.11591E+06
       0.0000      64846.9416         0.11593E+06
       0.0000      64887.2693         0.11596E+06
       0.0000      64927.5970         0.11598E+06
       0.0000      64967.9247         0.11601E+06
       0.0000      65008.2524         0.11604E+06
       0.0000      65048.5801         0.11606E+06
       0.0000      65088.9078         0.11610E+06
       0.0000      65129.2355         0.11613E+06
       0.0000      65169.5632         0.11616E+06
       0.0000      65209.8909         0.11620E+06
       0.0000      65250.2186         0.11624E+06
       0.0000      65290.5463         0.11628E+06
       0.0000      65330.8740         0.11632E+06
       0.0000      65371.2017         0.11636E+06
       0.0000      65411.5294         0.11640E+06
       0.0000      65451.8571         0.11645E+06
       0.0000      65492.1848         0.11650E+06
       0.0000      65532.5125         0.11655E+06
       0.0000      65572.8402         0.11660E+06
       0.0000      65613.1679         0.11665E+06
       0.0000      65653.4956         0.11670E+06
       0.0000      65693.8233         0.11676E+06
       0.0000      65734.1510         0.11681E+06
       0.0000      65774.4787         0.11687E+06
       0.0000      65814.8064         0.11693E+06
       0.0000      65855.1341         0.11699E+06
       0.0000      65895.4618         0.11705E+06
       0.0000      65935.7895         0.11712E+06
       0.0000      65976.1172         0.11718E+06
       0.0000      66016.4449         0.11725E+06
       0.0000      66056.7726         0.11732E+06
       0.0000      66097.1003         0.11739E+06
       0.0000      66137.4280         0.11746E+06
       0.0000      66177.7557         0.11753E+06
       0.0000      66218.0834         0.11761E+06
       0.0000      66258.4111         0.11769E+06
       0.0000      66298.7388         0.11776E+06
       0.0000      66339.0665         0.11784E+06
       0.0000      66379.3942         0.11792E+06
       0.0000      66419.7219         0.11801E+06
       0.0000      66460.0496         0.11809E+06
       0.0000      66500.3773         0.11818E+06
       0.0000      66540.7050         0.11826E+06
       0.0000      66581.0327         0.11835E+06
       0.0000      66621.3604         0.11844E+06
       0.0000      66661.6881         0.11854E+06
       0.0000      66702.0158         0.11863E+06
       0.0000      66742.3435         0.11872E+06
       0.0000      66782.6712         0.11882E+06
       0.0000      66822.9989         0.11892E+06
       0.0000      66863.3266         0.11902E+06
       0.0000      66903.6543         0.11912E+06
       0.0000      66943.9820         0.11922E+06
       0.0000      66984.3097         0.11933E+06
       0.0000      67024.6374         0.11943E+06
       0.0000      67064.9651         0.11954E+06
       0.0000      67105.2928         0.11965E+06
       0.0000      67145.6205         0.11976E+06
       0.0000      67185.9482         0.11987E+06
       0.0000      67226.2759         0.11998E+06
       0.0000      67266.6036         0.12010E+06
       0.0000      67306.9313         0.12021E+06
       0.0000      67347.2590         0.12033E+06
       0.0000      67387.5867         0.12045E+06
       0.0000      67427.9144         0.12057E+06
       0.0000      67468.2421         0.12070E+06
       0.0000      67508.5698         0.12082E+06
       0.0000      67548.8975         0.12095E+06
       0.0000      67589.2252         0.12107E+06
       0.0000      67629.5529         0.12120E+06
       0.0000      67669.8806         0.12134E+06
       0.0000      67710.2083         0.12147E+06
       0.0000      67750.5360         0.12160E+06
       0.0000      67790.8637         0.12174E+06
       0.0000      67831.1914         0.12187E+06
       0.0000      67871.5191         0.12201E+06
       0.0000      67911.8468         0.12215E+06
       0.0000      67952.1745         0.12229E+06
       0.0000      67992.5022         0.12244E+06
       0.0000      68032.8299         0.12258E+06
       0.0000      68073.1576         0.12273E+06
       0.0000      68113.4853         0.12288E+06
       0.0000      68153.8130         0.12303E+06
       0.0000      68194.1407         0.12318E+06
       0.0000      68234.4684         0.12333E+06
       0.0000      68274.7961         0.12349E+06
       0.0000      68315.1238         0.12364E+06
       0.0000      68355.4515         0.12380E+06
       0.0000      68395.7792         0.12396E+06
       0.0000      68436.1069         0.12412E+06
       0.0000      68476.4346         0.12428E+06
       0.0000      68516.7623         0.12445E+06
       0.0000      68557.0900         0.12461E+06
       0.0000      68597.4177         0.12478E+06
       0.0000      68637.7454         0.12495E+06
       0.0000      68678.0731         0.12512E+06
       0.0000      68718.4008         0.12529E+06
       0.0000      68758.7285         0.12547E+06
       0.0000      68799.0562         0.12565E+06
       0.0000      68839.3839         0.12582E+06
       0.0000      68879.7116         0.12600E+06
       0.0000      68920.0393         0.12618E+06
       0.0000      68960.3670         0.12637E+06
       0.0000      69000.6947         0.12655E+06
       0.0000      69041.0224         0.12674E+06
       0.0000      69081.3501         0.12692E+06
       0.0000      69121.6778         0.12711E+06
       0.0000      69162.0055         0.12731E+06
       0.0000      69202.3332         0.12750E+06
       0.0000      69242.6609         0.12769E+06
       0.0000      69282.9886         0.12789E+06
       0.0000      69323.3163         0.12809E+06
       0.0000      69363.6440         0.12829E+06
       0.0000      69403.9717         0.12849E+06
       0.0000      69444.2994         0.12869E+06
       0.0000      69484.6271         0.12890E+06
       0.0000      69524.9548         0.12911E+06
       0.0000      69565.2825         0.12931E+06
       0.0000      69605.6102         0.12953E+06
       0.0000      69645.9379         0.12974E+06
       0.0000      69686.2656         0.12995E+06
       0.0000      69726.5933         0.13017E+06
       0.0000      69766.9210         0.13039E+06
       0.0000      69807.2487         0.13061E+06
       0.0000      69847.5764         0.13083E+06
       0.0000      69887.9041         0.13105E+06
       0.0000      69928.2318         0.13128E+06
       0.0000      69968.5595         0.13150E+06
       0.0000      70008.8872         0.13173E+06
       0.0000      70049.2149         0.13196E+06
       0.0000      70089.5426         0.13219E+06
       0.0000      70129.8703         0.13243E+06
       0.0000      70170.1980         0.13267E+06
       0.0000      70210.5257         0.13290E+06
       0.0000      70250.8534         0.13314E+06
       0.0000      70291.1811         0.13339E+06
       0.0000      70331.5088         0.13363E+06
       0.0000      70371.8365         0.13388E+06
       0.0000      70412.1642         0.13412E+06
       0.0000      70452.4919         0.13437E+06
       0.0000      70492.8196         0.13462E+06
       0.0000      70533.1473         0.13488E+06
       0.0000      70573.4750         0.13513E+06
       0.0000      70613.8027         0.13539E+06
       0.0000      70654.1304         0.13565E+06
       0.0000      70694.4581         0.13591E+06
       0.0000      70734.7858         0.13618E+06
       0.0000      70775.1135         0.13644E+06
       0.0000      70815.4412         0.13671E+06
       0.0000      70855.7689         0.13698E+06
       0.0000      70896.0966         0.13725E+06
       0.0000      70936.4243         0.13752E+06
       0.0000      70976.7520         0.13780E+06
       0.0000      71017.0797         0.13808E+06
       0.0000      71057.4074         0.13836E+06
       0.0000      71097.7351         0.13864E+06
       0.0000      71138.0628         0.13892E+06
       0.0000      71178.3905         0.13921E+06
       0.0000      71218.7182         0.13950E+06
       0.0000      71259.0459         0.13979E+06
       0.0000      71299.3736         0.14008E+06
       0.0000      71339.7013         0.14037E+06
       0.0000      71380.0290         0.14067E+06
       0.0000      71420.3567         0.14097E+06
       0.0000      71460.6844         0.14127E+06
       0.0000      71501.0121         0.14158E+06
       0.0000      71541.3398         0.14188E+06
       0.0000      71581.6675         0.14219E+06
       0.0000      71621.9952         0.14250E+06
       0.0000      71662.3229         0.14281E+06
       0.0000      71702.6506         0.14313E+06
       0.0000      71742.9783         0.14344E+06
       0.0000      71783.3060         0.14376E+06
       0.0000      71823.6337         0.14408E+06
       0.0000      71863.9614         0.14441E+06
       0.0000      71904.2891         0.14473E+06
       0.0000      71944.6168         0.14506E+06
       0.0000      71984.9445         0.14539E+06
       0.0000      72025.2722         0.14572E+06
       0.0000      72065.5999         0.14606E+06
       0.0000      72105.9276         0.14640E+06
       0.0000      72146.2553         0.14674E+06
       0.0000      72186.5830         0.14708E+06
       0.0000      72226.9107         0.14743E+06
       0.0000      72267.2384         0.14777E+06
       0.0000      72307.5661         0.14812E+06
       0.0000      72347.8938         0.14847E+06
       0.0000      72388.2215         0.14883E+06
       0.0000      72428.5492         0.14919E+06
       0.0000      72468.8769         0.14955E+06
       0.0000      72509.2046         0.14991E+06
       0.0000      72549.5323         0.15027E+06
       0.0000      72589.8600         0.15064E+06
